id,session_id,case_id,trial_type,condition,category,initial_findings,initial_confidence,revised_findings,revised_confidence,ai_helpful,xai_helpful,xai_faithful,xai_view_selected,changed_mind,response_time_pre_ms,response_time_post_ms,bias_banner_dismissed,time_on_banner_ms,created_at,xai_overlay_finding,ground_truth,ai_preds
05ecbb17-e5f8-46bb-bd70-7add4e2200e1,268d4f1b-c349-48e9-a561-7245ba9612e9,fx-15,main,E,incidental,"[""cardiomegaly"",""consolidation"",""atelectasis"",""pleural_effusion"",""pneumothorax"",""edema""]",64,"[""cardiomegaly"",""consolidation"",""atelectasis"",""pleural_effusion"",""pneumothorax"",""edema""]",56,56,neutral,yes,original,false,87685,92896,,,2026-04-22 15:11:26.689349+00,,"[""cardiomegaly"",""edema"",""atelectasis"",""pleural_effusion"",""pneumothorax""]","{""edema"":0.62,""atelectasis"":0.5,""cardiomegaly"":0.37,""pneumothorax"":0.66,""consolidation"":0.45,""pleural_effusion"":0.58}"
0868a749-d67a-4e24-8f8c-18a0a6270e62,27931682-1071-4a19-a46c-50b4a188d17f,bonus-05,bonus,E,incidental,"[""cardiomegaly"",""consolidation"",""pleural_effusion""]",32,"[""cardiomegaly"",""consolidation"",""pleural_effusion""]",39,38,misleading,unsure,gradcam,false,32166,21485,,,2026-04-24 10:36:40.554781+00,cardiomegaly,"[""edema"",""consolidation"",""atelectasis"",""pleural_effusion"",""pneumothorax""]","{""edema"":0.54,""atelectasis"":0.71,""cardiomegaly"":0.02,""pneumothorax"":0.69,""consolidation"":0.57,""pleural_effusion"":0.55}"
0e06d2ad-2432-42e4-a481-32262855bc78,268d4f1b-c349-48e9-a561-7245ba9612e9,fx-03,main,A,hard,"[""edema"",""pleural_effusion"",""pneumothorax"",""atelectasis""]",51,,,,,,,,48401,,,,2026-04-22 14:25:41.478486+00,,"[""cardiomegaly"",""edema"",""consolidation"",""atelectasis"",""pleural_effusion""]","{""edema"":0.89,""atelectasis"":0.8,""cardiomegaly"":0.72,""pneumothorax"":0.03,""consolidation"":0.78,""pleural_effusion"":0.81}"
0fe94185-2c91-472f-9421-9feffc5169ed,c441fd3a-2158-44e7-a31d-68ab29632857,fx-02,main,E,easy,"[""atelectasis""]",86,"[""atelectasis""]",66,80,neutral,yes,gradcam,false,49171,102381,,,2026-04-23 15:49:00.2004+00,pleural_effusion,"[""pleural_effusion""]","{""edema"":0.55,""atelectasis"":0.72,""cardiomegaly"":0.11,""pneumothorax"":0.23,""consolidation"":0.72,""pleural_effusion"":0.91}"
187de9d1-ec07-4ce7-b74f-6ced0f6826e0,27931682-1071-4a19-a46c-50b4a188d17f,attention-check-01,attention_check,B,attention_check,"[""cardiomegaly""]",41,"[""cardiomegaly""]",55,55,,,,false,34547,12767,,,2026-04-24 10:29:12.168747+00,,"[""cardiomegaly""]","{""edema"":0.6,""atelectasis"":0.4,""cardiomegaly"":0.95,""pneumothorax"":0.07,""consolidation"":0.42,""pleural_effusion"":0.12}"
1f1b8b99-0e35-4229-b8f9-bb766d63a28b,c441fd3a-2158-44e7-a31d-68ab29632857,fx-10,main,C,ai_wrong,"[""pneumothorax""]",90,"[""pneumothorax""]",90,55,misleading,unsure,gradcam,false,58744,95209,,,2026-04-23 16:06:43.786006+00,pneumothorax,[],"{""edema"":0.02,""atelectasis"":0.05,""cardiomegaly"":0.04,""pneumothorax"":0.31,""consolidation"":0.14,""pleural_effusion"":0.04}"
200206fd-7237-438e-bed5-2c6ada8e474b,268d4f1b-c349-48e9-a561-7245ba9612e9,bonus-02,bonus,B,hard,"[""cardiomegaly"",""edema"",""consolidation"",""atelectasis"",""pleural_effusion"",""pneumothorax""]",62,"[""cardiomegaly"",""edema"",""consolidation"",""atelectasis"",""pleural_effusion"",""pneumothorax""]",62,65,,,,false,28770,32693,,,2026-04-22 15:17:42.896606+00,,"[""cardiomegaly"",""edema"",""consolidation"",""atelectasis"",""pleural_effusion""]","{""edema"":0.76,""atelectasis"":0.65,""cardiomegaly"":0.93,""pneumothorax"":0.03,""consolidation"":0.59,""pleural_effusion"":0.6}"
21cff372-ba25-40c0-9550-1b5e04d73401,268d4f1b-c349-48e9-a561-7245ba9612e9,fx-02,main,A,easy,"[""pleural_effusion"",""atelectasis""]",48,,,,,,,,82834,,,,2026-04-22 14:24:53.063622+00,,"[""pleural_effusion""]","{""edema"":0.55,""atelectasis"":0.72,""cardiomegaly"":0.11,""pneumothorax"":0.23,""consolidation"":0.72,""pleural_effusion"":0.91}"
2a4ee5e3-8a88-480d-8a87-bc1189fd8274,268d4f1b-c349-48e9-a561-7245ba9612e9,bonus-03,bonus,C,incidental,"[""cardiomegaly"",""edema"",""pleural_effusion"",""consolidation"",""atelectasis"",""pneumothorax""]",66,"[""cardiomegaly"",""edema"",""pleural_effusion"",""consolidation"",""atelectasis"",""pneumothorax""]",58,63,neutral,yes,original,false,74487,33021,,,2026-04-22 15:15:52.558729+00,,"[""cardiomegaly"",""edema"",""atelectasis"",""pleural_effusion"",""pneumothorax""]","{""edema"":0.16,""atelectasis"":0.62,""cardiomegaly"":0.52,""pneumothorax"":0.99,""consolidation"":0.37,""pleural_effusion"":0.53}"
2b4ae33a-0b34-4759-a3e3-fa9d1213974f,c441fd3a-2158-44e7-a31d-68ab29632857,attention-check-01,attention_check,B,attention_check,"[""cardiomegaly""]",84,"[""cardiomegaly""]",92,79,,,,false,85111,29536,,,2026-04-23 16:01:46.939467+00,,"[""cardiomegaly""]","{""edema"":0.6,""atelectasis"":0.4,""cardiomegaly"":0.95,""pneumothorax"":0.07,""consolidation"":0.42,""pleural_effusion"":0.12}"
33bac1f0-94ce-44dd-8000-d9717d656a5c,268d4f1b-c349-48e9-a561-7245ba9612e9,fx-05,main,B,incidental,"[""consolidation"",""atelectasis"",""pleural_effusion"",""edema""]",55,"[""consolidation"",""atelectasis"",""pleural_effusion"",""edema"",""pneumothorax""]",56,73,,,,true,79387,47573,,,2026-04-22 14:33:22.263059+00,,"[""cardiomegaly"",""edema"",""consolidation"",""atelectasis"",""pleural_effusion"",""pneumothorax""]","{""edema"":0.3,""atelectasis"":0.45,""cardiomegaly"":0.24,""pneumothorax"":0.99,""consolidation"":0.62,""pleural_effusion"":0.65}"
3678eb1a-fb2e-461e-a62f-ed086a42d466,27931682-1071-4a19-a46c-50b4a188d17f,fx-08,main,B,hard,"[""cardiomegaly"",""pleural_effusion"",""edema""]",60,"[""cardiomegaly"",""pleural_effusion"",""edema""]",62,60,,,,false,23164,8932,,,2026-04-24 10:31:49.795501+00,,"[""cardiomegaly"",""edema"",""consolidation"",""atelectasis"",""pleural_effusion""]","{""edema"":0.92,""atelectasis"":0.56,""cardiomegaly"":0.96,""pneumothorax"":0.01,""consolidation"":0.64,""pleural_effusion"":0.86}"
36bad391-3721-4b78-a8bb-e99d3e34522a,27931682-1071-4a19-a46c-50b4a188d17f,fx-06,main,A,incidental,"[""pleural_effusion"",""cardiomegaly"",""edema""]",60,,,,,,,,19814,,,,2026-04-24 10:30:12.790764+00,,"[""cardiomegaly"",""edema"",""atelectasis"",""pleural_effusion"",""pneumothorax""]","{""edema"":0.92,""atelectasis"":0.56,""cardiomegaly"":0.7,""pneumothorax"":0.57,""consolidation"":0.48,""pleural_effusion"":0.93}"
394c9e79-b690-4a55-8b77-175e502a3560,27931682-1071-4a19-a46c-50b4a188d17f,baseline-02,baseline,A,baseline,"[""cardiomegaly"",""pleural_effusion""]",28,,,,,,,,44918,,,,2026-04-24 10:20:17.516797+00,,"[""edema""]",{}
3e9bfca1-cdbc-4af1-bf97-3084c7a15a9c,27931682-1071-4a19-a46c-50b4a188d17f,fx-02,main,D,easy,"[""pleural_effusion"",""cardiomegaly"",""consolidation""]",56,"[""pleural_effusion"",""consolidation"",""edema""]",54,59,neutral,yes,gradcam,true,50701,36755,false,,2026-04-24 10:26:09.675791+00,pleural_effusion,"[""pleural_effusion""]","{""edema"":0.55,""atelectasis"":0.72,""cardiomegaly"":0.11,""pneumothorax"":0.23,""consolidation"":0.72,""pleural_effusion"":0.91}"
43c21dde-8c56-43ef-b300-c3f901da0bd1,27931682-1071-4a19-a46c-50b4a188d17f,fx-01,main,D,easy,"[""edema"",""pleural_effusion"",""cardiomegaly""]",60,"[""edema"",""pleural_effusion"",""cardiomegaly""]",47,47,neutral,yes,original,false,82709,57184,,,2026-04-24 10:24:42.236872+00,,"[""edema""]","{""edema"":0.95,""atelectasis"":0.49,""cardiomegaly"":0.31,""pneumothorax"":0.03,""consolidation"":0.33,""pleural_effusion"":0.08}"
4bdecd4c-c21e-4af1-956e-352c1b0e0f8b,27931682-1071-4a19-a46c-50b4a188d17f,bonus-03,bonus,C,incidental,"[""pneumothorax""]",55,"[""pneumothorax""]",43,43,neutral,partially,gradcam,false,25999,12884,,,2026-04-24 10:37:19.478746+00,pneumothorax,"[""cardiomegaly"",""edema"",""atelectasis"",""pleural_effusion"",""pneumothorax""]","{""edema"":0.16,""atelectasis"":0.62,""cardiomegaly"":0.52,""pneumothorax"":0.99,""consolidation"":0.37,""pleural_effusion"":0.53}"
4dfd4f82-195d-4863-bb42-71b01c1c88f7,268d4f1b-c349-48e9-a561-7245ba9612e9,fx-07,main,C,easy,"[""cardiomegaly"",""consolidation"",""atelectasis""]",54,"[""cardiomegaly"",""consolidation"",""atelectasis"",""edema"",""pleural_effusion""]",54,53,helped,yes,original,true,77904,231359,,,2026-04-22 14:45:49.322968+00,,"[""consolidation""]","{""edema"":0.65,""atelectasis"":0.35,""cardiomegaly"":0.54,""pneumothorax"":0.12,""consolidation"":0.83,""pleural_effusion"":0.56}"
50bae688-1c06-4222-9beb-236b514255f3,268d4f1b-c349-48e9-a561-7245ba9612e9,bonus-01,bonus,A,easy,"[""cardiomegaly"",""consolidation"",""edema"",""pleural_effusion""]",60,,,,,,,,48681,,,,2026-04-22 15:16:41.094316+00,,"[""cardiomegaly""]","{""edema"":0.49,""atelectasis"":0.25,""cardiomegaly"":0.87,""pneumothorax"":0.17,""consolidation"":0.1,""pleural_effusion"":0.05}"
50e03190-a8d0-4848-9709-29881fb18209,c441fd3a-2158-44e7-a31d-68ab29632857,fx-08,main,B,hard,"[""cardiomegaly"",""pleural_effusion"",""edema""]",86,"[""cardiomegaly"",""pleural_effusion"",""edema""]",91,83,,,,false,63324,37603,,,2026-04-23 15:59:52.513503+00,,"[""cardiomegaly"",""edema"",""consolidation"",""atelectasis"",""pleural_effusion""]","{""edema"":0.92,""atelectasis"":0.56,""cardiomegaly"":0.96,""pneumothorax"":0.01,""consolidation"":0.64,""pleural_effusion"":0.86}"
522c6e95-a803-477e-91e3-febf12072917,268d4f1b-c349-48e9-a561-7245ba9612e9,fx-13,main,E,easy,"[""cardiomegaly"",""consolidation"",""atelectasis"",""pleural_effusion"",""pneumothorax""]",54,"[""cardiomegaly"",""consolidation"",""atelectasis"",""pleural_effusion"",""pneumothorax""]",53,57,neutral,yes,original,true,77927,106861,,,2026-04-22 15:05:26.493876+00,,"[""edema""]","{""edema"":0.72,""atelectasis"":0.12,""cardiomegaly"":0.27,""pneumothorax"":0.01,""consolidation"":0.13,""pleural_effusion"":0.02}"
5ddab443-fc3c-423a-998d-61758f7f7842,c441fd3a-2158-44e7-a31d-68ab29632857,fx-05,main,A,incidental,"[""pleural_effusion""]",89,,,,,,,,40608,,,,2026-04-23 15:54:24.396195+00,,"[""cardiomegaly"",""edema"",""consolidation"",""atelectasis"",""pleural_effusion"",""pneumothorax""]","{""edema"":0.3,""atelectasis"":0.45,""cardiomegaly"":0.24,""pneumothorax"":0.99,""consolidation"":0.62,""pleural_effusion"":0.65}"
5fe9eedd-3055-4473-aa8e-8b992b8e6c6f,268d4f1b-c349-48e9-a561-7245ba9612e9,fx-12,main,D,incidental,"[""cardiomegaly"",""consolidation"",""pleural_effusion"",""atelectasis"",""edema""]",60,"[""cardiomegaly"",""consolidation"",""pleural_effusion"",""atelectasis"",""edema""]",58,63,misleading,no,gradcam,false,82236,75551,false,,2026-04-22 15:02:21.653051+00,pleural_effusion,"[""cardiomegaly"",""edema"",""atelectasis"",""pleural_effusion"",""pneumothorax""]","{""edema"":0.7,""atelectasis"":0.54,""cardiomegaly"":0.33,""pneumothorax"":0.59,""consolidation"":0.55,""pleural_effusion"":0.73}"
645efb64-1773-4731-84e4-c6f164ff0451,c441fd3a-2158-44e7-a31d-68ab29632857,baseline-04,baseline,A,baseline,"[""pneumothorax""]",86,,,,,,,,51440,,,,2026-04-23 15:40:56.823843+00,,[],{}
64d7bb02-4b04-44b8-b3bd-03babc3653f8,268d4f1b-c349-48e9-a561-7245ba9612e9,fx-08,main,C,hard,"[""cardiomegaly"",""edema"",""consolidation"",""atelectasis"",""pleural_effusion""]",53,"[""cardiomegaly"",""edema"",""consolidation"",""atelectasis"",""pleural_effusion""]",57,57,neutral,yes,original,false,37837,54083,,,2026-04-22 14:47:21.905167+00,,"[""cardiomegaly"",""edema"",""consolidation"",""atelectasis"",""pleural_effusion""]","{""edema"":0.92,""atelectasis"":0.56,""cardiomegaly"":0.96,""pneumothorax"":0.01,""consolidation"":0.64,""pleural_effusion"":0.86}"
681f364c-cdcb-4568-aa5d-6d001d8788a5,27931682-1071-4a19-a46c-50b4a188d17f,fx-07,main,B,easy,"[""consolidation""]",62,"[""consolidation"",""pleural_effusion""]",57,56,,,,true,43166,14551,,,2026-04-24 10:31:10.453682+00,,"[""consolidation""]","{""edema"":0.65,""atelectasis"":0.35,""cardiomegaly"":0.54,""pneumothorax"":0.12,""consolidation"":0.83,""pleural_effusion"":0.56}"
68a9d3b3-5266-4334-9ccd-ef3f5e419576,c441fd3a-2158-44e7-a31d-68ab29632857,fx-09,main,B,ai_wrong,[],75,[],76,60,,,,false,61804,54039,,,2026-04-23 16:04:09.733828+00,,[],"{""edema"":0.23,""atelectasis"":0.59,""cardiomegaly"":0.2,""pneumothorax"":0.52,""consolidation"":0.43,""pleural_effusion"":0.13}"
75175415-ce52-4d5e-aa2c-a4bc3ab7056e,268d4f1b-c349-48e9-a561-7245ba9612e9,fx-01,main,A,easy,"[""edema"",""pleural_effusion"",""pneumothorax"",""consolidation""]",53,,,,,,,,69570,,,,2026-04-22 14:23:30.344146+00,,"[""edema""]","{""edema"":0.95,""atelectasis"":0.49,""cardiomegaly"":0.31,""pneumothorax"":0.03,""consolidation"":0.33,""pleural_effusion"":0.08}"
7a350453-70b9-4de3-b8bb-fb263268c2e9,27931682-1071-4a19-a46c-50b4a188d17f,bonus-02,bonus,B,hard,"[""cardiomegaly"",""pleural_effusion"",""edema""]",54,"[""cardiomegaly"",""pleural_effusion"",""edema""]",59,60,,,,false,21251,9649,,,2026-04-24 10:35:46.920617+00,,"[""cardiomegaly"",""edema"",""consolidation"",""atelectasis"",""pleural_effusion""]","{""edema"":0.76,""atelectasis"":0.65,""cardiomegaly"":0.93,""pneumothorax"":0.03,""consolidation"":0.59,""pleural_effusion"":0.6}"
828d4a6c-45b5-4a05-981e-cf5ae49c691d,268d4f1b-c349-48e9-a561-7245ba9612e9,attention-check-01,attention_check,B,attention_check,"[""cardiomegaly"",""edema"",""consolidation"",""pneumothorax"",""pleural_effusion""]",52,"[""cardiomegaly"",""edema"",""consolidation"",""pneumothorax"",""pleural_effusion""]",52,64,,,,true,78097,30693,,,2026-04-22 14:59:12.912197+00,,"[""cardiomegaly""]","{""edema"":0.6,""atelectasis"":0.4,""cardiomegaly"":0.95,""pneumothorax"":0.07,""consolidation"":0.42,""pleural_effusion"":0.12}"
83408309-a090-4af1-8e53-d5deabe705d1,c441fd3a-2158-44e7-a31d-68ab29632857,fx-04,main,A,hard,"[""edema"",""cardiomegaly"",""pleural_effusion""]",85,,,,,,,,109222,,,,2026-04-23 15:53:43.834219+00,,"[""cardiomegaly"",""edema"",""consolidation"",""atelectasis"",""pleural_effusion""]","{""edema"":0.89,""atelectasis"":0.62,""cardiomegaly"":0.95,""pneumothorax"":0.04,""consolidation"":0.53,""pleural_effusion"":0.82}"
860f1fab-1ddb-4256-998e-b7e33c05a945,c441fd3a-2158-44e7-a31d-68ab29632857,fx-06,main,A,incidental,"[""cardiomegaly"",""edema"",""pleural_effusion""]",83,,,,,,,,60356,,,,2026-04-23 15:55:24.738636+00,,"[""cardiomegaly"",""edema"",""atelectasis"",""pleural_effusion"",""pneumothorax""]","{""edema"":0.92,""atelectasis"":0.56,""cardiomegaly"":0.7,""pneumothorax"":0.57,""consolidation"":0.48,""pleural_effusion"":0.93}"
874b1ea7-eeba-4ce7-96f1-8e75ea7221e7,c441fd3a-2158-44e7-a31d-68ab29632857,baseline-01,baseline,A,baseline,"[""cardiomegaly""]",95,,,,,,,,64485,,,,2026-04-23 15:37:44.719732+00,,"[""cardiomegaly""]",{}
8fcad4d9-7674-4ebd-aa00-abf173e011c9,27931682-1071-4a19-a46c-50b4a188d17f,baseline-01,baseline,A,baseline,"[""cardiomegaly"",""atelectasis""]",41,,,,,,,,38996,,,,2026-04-24 10:19:29.915689+00,,"[""cardiomegaly""]",{}
9c8f1ffe-3dc9-4edb-b37b-564cd83f29bd,c441fd3a-2158-44e7-a31d-68ab29632857,baseline-02,baseline,A,baseline,"[""pleural_effusion""]",88,,,,,,,,46172,,,,2026-04-23 15:38:44.178398+00,,"[""edema""]",{}
9dd48e34-dd71-4e12-a714-f48fc34187cb,268d4f1b-c349-48e9-a561-7245ba9612e9,fx-11,main,D,incidental,"[""cardiomegaly"",""consolidation"",""pleural_effusion"",""edema""]",55,"[""cardiomegaly"",""consolidation"",""pleural_effusion"",""edema"",""pneumothorax""]",39,58,helped,yes,original,true,45404,75728,,,2026-04-22 14:57:24.23587+00,,"[""cardiomegaly"",""edema"",""atelectasis"",""pleural_effusion"",""pneumothorax""]","{""edema"":0.54,""atelectasis"":0.52,""cardiomegaly"":0.44,""pneumothorax"":0.94,""consolidation"":0.48,""pleural_effusion"":0.35}"
9ec5458b-12df-447b-8988-376ac950ac44,c441fd3a-2158-44e7-a31d-68ab29632857,fx-07,main,B,easy,"[""consolidation""]",86,"[""consolidation""]",95,80,,,,false,81087,63861,,,2026-04-23 15:58:11.313039+00,,"[""consolidation""]","{""edema"":0.65,""atelectasis"":0.35,""cardiomegaly"":0.54,""pneumothorax"":0.12,""consolidation"":0.83,""pleural_effusion"":0.56}"
a067e5df-8200-48b4-8f27-f0379ae7b67e,27931682-1071-4a19-a46c-50b4a188d17f,baseline-03,baseline,A,baseline,"[""cardiomegaly"",""pleural_effusion""]",66,,,,,,,,26061,,,,2026-04-24 10:20:46.218742+00,,"[""pleural_effusion""]",{}
a1f6eaa2-098d-41d3-ba78-d8c4f26acf54,268d4f1b-c349-48e9-a561-7245ba9612e9,fx-09,main,C,ai_wrong,[],53,[],59,73,helped,yes,original,true,87166,112181,,,2026-04-22 14:50:40.828633+00,,[],"{""edema"":0.23,""atelectasis"":0.59,""cardiomegaly"":0.2,""pneumothorax"":0.52,""consolidation"":0.43,""pleural_effusion"":0.13}"
a2869a4d-53f0-44fe-904d-7bc2e85db451,27931682-1071-4a19-a46c-50b4a188d17f,fx-03,main,E,hard,"[""cardiomegaly"",""edema"",""pleural_effusion""]",53,"[""cardiomegaly"",""edema"",""pleural_effusion""]",52,52,neutral,yes,original,false,46874,17017,,,2026-04-24 10:27:31.760533+00,,"[""cardiomegaly"",""edema"",""consolidation"",""atelectasis"",""pleural_effusion""]","{""edema"":0.89,""atelectasis"":0.8,""cardiomegaly"":0.72,""pneumothorax"":0.03,""consolidation"":0.78,""pleural_effusion"":0.81}"
a377fbb6-b9b7-4702-b40c-71c18a14e7ab,268d4f1b-c349-48e9-a561-7245ba9612e9,baseline-03,baseline,A,baseline,"[""pleural_effusion"",""atelectasis"",""edema""]",43,,,,,,,,78829,,,,2026-04-22 14:19:02.17979+00,,"[""pleural_effusion""]",{}
a974c635-240c-4b2a-9097-b70a426e55ba,c441fd3a-2158-44e7-a31d-68ab29632857,fx-12,main,C,incidental,"[""cardiomegaly"",""pneumothorax"",""edema""]",85,"[""cardiomegaly"",""pneumothorax"",""edema""]",86,78,misleading,no,original,false,72503,170022,,,2026-04-23 16:17:12.061492+00,,"[""cardiomegaly"",""edema"",""atelectasis"",""pleural_effusion"",""pneumothorax""]","{""edema"":0.7,""atelectasis"":0.54,""cardiomegaly"":0.33,""pneumothorax"":0.59,""consolidation"":0.55,""pleural_effusion"":0.73}"
b77928c9-d2df-466c-b2cf-59bfd4798251,c441fd3a-2158-44e7-a31d-68ab29632857,fx-03,main,E,hard,"[""edema""]",86,"[""edema""]",86,75,neutral,yes,gradcam,false,77276,56205,,,2026-04-23 15:51:13.971662+00,edema,"[""cardiomegaly"",""edema"",""consolidation"",""atelectasis"",""pleural_effusion""]","{""edema"":0.89,""atelectasis"":0.8,""cardiomegaly"":0.72,""pneumothorax"":0.03,""consolidation"":0.78,""pleural_effusion"":0.81}"
b7eee6c2-a1d6-4461-a255-124598f96ca3,268d4f1b-c349-48e9-a561-7245ba9612e9,fx-06,main,B,incidental,"[""cardiomegaly"",""consolidation"",""atelectasis"",""pneumothorax"",""edema""]",54,"[""cardiomegaly"",""consolidation"",""atelectasis"",""pneumothorax"",""edema""]",55,56,,,,false,55595,66615,,,2026-04-22 14:35:24.504759+00,,"[""cardiomegaly"",""edema"",""atelectasis"",""pleural_effusion"",""pneumothorax""]","{""edema"":0.92,""atelectasis"":0.56,""cardiomegaly"":0.7,""pneumothorax"":0.57,""consolidation"":0.48,""pleural_effusion"":0.93}"
bb6651bc-84ed-4f84-af8d-391013f0c514,27931682-1071-4a19-a46c-50b4a188d17f,baseline-04,baseline,A,baseline,[],25,,,,,,,,39498,,,,2026-04-24 10:21:26.310685+00,,[],{}
bcafa98c-a86d-47ac-8cc9-2d15e2e30fe3,c441fd3a-2158-44e7-a31d-68ab29632857,baseline-03,baseline,A,baseline,"[""atelectasis""]",84,,,,,,,,69725,,,,2026-04-23 15:39:59.892584+00,,"[""pleural_effusion""]",{}
be235438-3d81-477b-ada5-d1c37a84fa70,27931682-1071-4a19-a46c-50b4a188d17f,fx-09,main,C,ai_wrong,[],52,"[""pneumothorax""]",60,56,neutral,partially,original,true,54949,37200,,,2026-04-24 10:33:22.017353+00,,[],"{""edema"":0.23,""atelectasis"":0.59,""cardiomegaly"":0.2,""pneumothorax"":0.52,""consolidation"":0.43,""pleural_effusion"":0.13}"
bf201dcf-5058-4e63-9663-eb92c0e20d7e,c441fd3a-2158-44e7-a31d-68ab29632857,fx-14,main,D,hard,"[""cardiomegaly"",""consolidation"",""edema"",""pleural_effusion""]",80,"[""cardiomegaly"",""consolidation"",""edema"",""pleural_effusion""]",90,81,neutral,partially,original,false,50705,46873,,,2026-04-23 16:21:19.626423+00,,"[""cardiomegaly"",""edema"",""consolidation"",""atelectasis"",""pleural_effusion""]","{""edema"":0.83,""atelectasis"":0.48,""cardiomegaly"":0.91,""pneumothorax"":0.02,""consolidation"":0.57,""pleural_effusion"":0.95}"
c3b51499-c181-45b6-b35a-53d265a9608d,c441fd3a-2158-44e7-a31d-68ab29632857,fx-11,main,C,incidental,"[""edema"",""pleural_effusion""]",80,"[""edema"",""pleural_effusion""]",71,73,helped,unsure,gradcam,true,128633,238195,,,2026-04-23 16:12:50.844919+00,pneumothorax,"[""cardiomegaly"",""edema"",""atelectasis"",""pleural_effusion"",""pneumothorax""]","{""edema"":0.54,""atelectasis"":0.52,""cardiomegaly"":0.44,""pneumothorax"":0.94,""consolidation"":0.48,""pleural_effusion"":0.35}"
c9a3cd20-91aa-44af-9099-cb3d71a6fdde,268d4f1b-c349-48e9-a561-7245ba9612e9,bonus-04,bonus,D,ai_wrong,[],62,"[""pleural_effusion""]",61,60,neutral,yes,original,true,35041,81269,false,,2026-04-22 15:19:38.858945+00,,[],"{""edema"":0.05,""atelectasis"":0.1,""cardiomegaly"":0.04,""pneumothorax"":0.11,""consolidation"":0.09,""pleural_effusion"":0.88}"
c9b36ae5-03f7-4e14-8684-f858b4e95b3f,268d4f1b-c349-48e9-a561-7245ba9612e9,bonus-05,bonus,E,incidental,"[""edema"",""pleural_effusion"",""pneumothorax"",""consolidation"",""atelectasis"",""cardiomegaly""]",65,"[""edema"",""pleural_effusion"",""pneumothorax"",""consolidation"",""atelectasis"",""cardiomegaly""]",61,67,neutral,partially,original,false,82372,64533,,,2026-04-22 15:14:05.156748+00,,"[""edema"",""consolidation"",""atelectasis"",""pleural_effusion"",""pneumothorax""]","{""edema"":0.54,""atelectasis"":0.71,""cardiomegaly"":0.02,""pneumothorax"":0.69,""consolidation"":0.57,""pleural_effusion"":0.55}"
c9d5d8c2-4a6d-48ac-a766-4769413169d9,27931682-1071-4a19-a46c-50b4a188d17f,bonus-01,bonus,A,easy,"[""cardiomegaly""]",56,,,,,,,,24899,,,,2026-04-24 10:37:44.27663+00,,"[""cardiomegaly""]","{""edema"":0.49,""atelectasis"":0.25,""cardiomegaly"":0.87,""pneumothorax"":0.17,""consolidation"":0.1,""pleural_effusion"":0.05}"
cd6f5ba3-9a4f-4e8c-9248-82c74c88de93,27931682-1071-4a19-a46c-50b4a188d17f,fx-04,main,E,hard,"[""cardiomegaly"",""edema"",""pleural_effusion""]",57,"[""cardiomegaly"",""edema"",""pleural_effusion""]",54,54,misleading,no,original,false,28398,17035,,,2026-04-24 10:28:17.053453+00,,"[""cardiomegaly"",""edema"",""consolidation"",""atelectasis"",""pleural_effusion""]","{""edema"":0.89,""atelectasis"":0.62,""cardiomegaly"":0.95,""pneumothorax"":0.04,""consolidation"":0.53,""pleural_effusion"":0.82}"
ce937a89-99b9-4291-a2f7-589cb5a41694,27931682-1071-4a19-a46c-50b4a188d17f,bonus-04,bonus,D,ai_wrong,"[""pleural_effusion""]",53,"[""pleural_effusion""]",59,57,neutral,yes,gradcam,false,25790,12083,false,,2026-04-24 10:35:15.993315+00,pleural_effusion,[],"{""edema"":0.05,""atelectasis"":0.1,""cardiomegaly"":0.04,""pneumothorax"":0.11,""consolidation"":0.09,""pleural_effusion"":0.88}"
d2a03cab-60a0-42fc-82fe-c1dee47635ab,27931682-1071-4a19-a46c-50b4a188d17f,fx-05,main,A,incidental,"[""consolidation""]",62,,,,,,,,34834,,,,2026-04-24 10:29:47.004912+00,,"[""cardiomegaly"",""edema"",""consolidation"",""atelectasis"",""pleural_effusion"",""pneumothorax""]","{""edema"":0.3,""atelectasis"":0.45,""cardiomegaly"":0.24,""pneumothorax"":0.99,""consolidation"":0.62,""pleural_effusion"":0.65}"
d4cd3860-39d4-445a-85b7-cae41f1ea40e,268d4f1b-c349-48e9-a561-7245ba9612e9,baseline-04,baseline,A,baseline,[],51,,,,,,,,44645,,,,2026-04-22 14:19:52.560075+00,,[],{}
db23fe28-c755-42d8-8da3-8573c3a0455a,268d4f1b-c349-48e9-a561-7245ba9612e9,baseline-02,baseline,A,baseline,"[""consolidation"",""pneumothorax"",""atelectasis""]",46,,,,,,,,113661,,,,2026-04-22 14:17:39.473585+00,,"[""edema""]",{}
e13d73c7-3edf-419d-8e29-6f7e2cdc24e1,c441fd3a-2158-44e7-a31d-68ab29632857,fx-15,main,D,incidental,"[""pleural_effusion""]",80,"[""pleural_effusion""]",80,53,neutral,partially,gradcam,false,138046,81243,,,2026-04-23 16:25:18.082913+00,edema,"[""cardiomegaly"",""edema"",""atelectasis"",""pleural_effusion"",""pneumothorax""]","{""edema"":0.62,""atelectasis"":0.5,""cardiomegaly"":0.37,""pneumothorax"":0.66,""consolidation"":0.45,""pleural_effusion"":0.58}"
e29342f6-74f4-4482-843b-c53a7b16f46b,268d4f1b-c349-48e9-a561-7245ba9612e9,fx-10,main,D,ai_wrong,"[""pneumothorax""]",55,"[""pneumothorax""]",57,45,misleading,unsure,original,false,166055,89890,false,,2026-04-22 14:55:23.222325+00,,[],"{""edema"":0.02,""atelectasis"":0.05,""cardiomegaly"":0.04,""pneumothorax"":0.31,""consolidation"":0.14,""pleural_effusion"":0.04}"
e2d61ac3-68af-482c-9e1a-94089365508e,c441fd3a-2158-44e7-a31d-68ab29632857,fx-01,main,E,easy,"[""pleural_effusion""]",90,"[""pleural_effusion""]",87,11,helped,yes,gradcam,false,64288,136730,,,2026-04-23 15:46:28.775555+00,edema,"[""edema""]","{""edema"":0.95,""atelectasis"":0.49,""cardiomegaly"":0.31,""pneumothorax"":0.03,""consolidation"":0.33,""pleural_effusion"":0.08}"
ead72995-4c7d-4509-9cf0-e50763e1565d,27931682-1071-4a19-a46c-50b4a188d17f,fx-10,main,C,ai_wrong,"[""pneumothorax""]",49,"[""pneumothorax""]",54,57,neutral,unsure,original,false,43581,17467,,,2026-04-24 10:34:28.283415+00,,[],"{""edema"":0.02,""atelectasis"":0.05,""cardiomegaly"":0.04,""pneumothorax"":0.31,""consolidation"":0.14,""pleural_effusion"":0.04}"
eda9215f-92b4-44a7-9ffd-9a85bb03bdbb,268d4f1b-c349-48e9-a561-7245ba9612e9,baseline-01,baseline,A,baseline,"[""cardiomegaly"",""atelectasis"",""pleural_effusion""]",44,,,,,,,,180785,,,,2026-04-22 14:15:41.305303+00,,"[""cardiomegaly""]",{}
ee52d7ec-b56f-4af5-9101-33418c5b6ea1,268d4f1b-c349-48e9-a561-7245ba9612e9,fx-04,main,B,hard,"[""cardiomegaly"",""edema"",""pleural_effusion""]",45,"[""cardiomegaly"",""edema"",""pleural_effusion"",""atelectasis"",""consolidation""]",50,68,,,,true,138654,126999,,,2026-04-22 14:31:15.470268+00,,"[""cardiomegaly"",""edema"",""consolidation"",""atelectasis"",""pleural_effusion""]","{""edema"":0.89,""atelectasis"":0.62,""cardiomegaly"":0.95,""pneumothorax"":0.04,""consolidation"":0.53,""pleural_effusion"":0.82}"
efd7fb37-f975-476e-b60b-7c360ec739ce,c441fd3a-2158-44e7-a31d-68ab29632857,fx-13,main,D,easy,[],80,[],80,78,helped,partially,gradcam,true,91861,58189,,,2026-04-23 16:19:42.023232+00,edema,"[""edema""]","{""edema"":0.72,""atelectasis"":0.12,""cardiomegaly"":0.27,""pneumothorax"":0.01,""consolidation"":0.13,""pleural_effusion"":0.02}"
f6aacd1b-cae4-493d-9c7c-a7524c5d4fa5,268d4f1b-c349-48e9-a561-7245ba9612e9,fx-14,main,E,hard,"[""cardiomegaly"",""edema"",""consolidation"",""atelectasis"",""pleural_effusion"",""pneumothorax""]",69,"[""cardiomegaly"",""edema"",""consolidation"",""atelectasis"",""pleural_effusion"",""pneumothorax""]",70,58,neutral,yes,original,true,62666,52296,,,2026-04-22 15:07:21.310245+00,,"[""cardiomegaly"",""edema"",""consolidation"",""atelectasis"",""pleural_effusion""]","{""edema"":0.83,""atelectasis"":0.48,""cardiomegaly"":0.91,""pneumothorax"":0.02,""consolidation"":0.57,""pleural_effusion"":0.95}"